Fichero De Datos De SpectraSuite
++++++++++++++++++++++++++++++++++++
Fecha: Tue Jun 28 11:21:40 CLT 2016
Usuario: Paulina Naranjo
Presente Oscuro Del Espectro: No
La Referencia de Presente Del Espectro De: No
Muestreados de los componentes de Número de espectros: 1
Espectrómetros: HR4C471
Tiempo de integración (usec): 700000 (HR4C471)
Promedio de Espectros Hechos un: 2 (HR4C471)
El Alisar Del Furgón: 3 (HR4C471)
Párrafo de de Corregir del la del del de Eléctrica del obscuridad: No (HR4C471)
Estrobo/Lámpara Permitido: No (HR4C471)
Correct for Detector Non-linearity: No (HR4C471)
Párrafo de de Corregir del la del del de Externa del luz: No (HR4C471)
Procesado del espectro de Número de pixeles en: 3648
>>>>> Comienza Data<<<<< Espectral Procesado Del EL
195.96	428.50
196.22	428.50
196.49	428.50
196.76	722.43
197.03	812.29
197.30	890.50
197.57	1017.00
197.84	1134.36
198.11	1188.14
198.38	1124.29
198.65	1155.93
198.91	1199.14
199.18	1211.57
199.45	1170.50
199.72	1212.07
199.99	1256.64
200.26	1281.64
200.53	1222.36
200.80	1281.71
201.07	1341.29
201.34	1358.50
201.60	1306.71
201.87	1353.07
202.14	1368.64
202.41	1375.50
202.68	1289.43
202.95	1304.79
203.22	1335.79
203.49	1348.86
203.76	1269.07
204.02	1322.64
204.29	1353.50
204.56	1349.07
204.83	1278.00
205.10	1302.21
205.37	1316.64
205.64	1314.00
205.91	1239.14
206.17	1284.36
206.44	1317.36
206.71	1325.57
206.98	1264.71
207.25	1303.00
207.52	1340.07
207.79	1345.93
208.06	1293.79
208.32	1350.00
208.59	1380.71
208.86	1379.64
209.13	1313.71
209.40	1356.86
209.67	1386.29
209.94	1376.50
210.21	1293.43
210.47	1330.21
210.74	1361.21
211.01	1365.57
211.28	1289.07
211.55	1328.57
211.82	1355.21
212.09	1349.79
212.35	1274.50
212.62	1321.64
212.89	1354.43
213.16	1348.21
213.43	1276.14
213.70	1318.93
213.97	1356.00
214.23	1378.50
214.50	1319.93
214.77	1369.00
215.04	1411.79
215.31	1413.86
215.58	1345.57
215.85	1385.50
216.11	1402.93
216.38	1381.71
216.65	1307.57
216.92	1335.86
217.19	1348.86
217.46	1337.43
217.72	1253.07
217.99	1266.29
218.26	1307.29
218.53	1296.79
218.80	1239.14
219.07	1295.00
219.33	1319.71
219.60	1334.93
219.87	1292.14
220.14	1322.71
220.41	1357.36
220.68	1353.29
220.95	1297.71
221.21	1355.14
221.48	1372.07
221.75	1365.86
222.02	1302.36
222.29	1341.14
222.55	1363.79
222.82	1342.21
223.09	1256.86
223.36	1301.29
223.63	1321.57
223.90	1318.64
224.16	1247.07
224.43	1298.14
224.70	1332.79
224.97	1341.21
225.24	1267.86
225.51	1329.64
225.77	1380.64
226.04	1385.57
226.31	1312.43
226.58	1345.07
226.85	1358.57
227.11	1361.07
227.38	1279.86
227.65	1293.71
227.92	1319.71
228.19	1323.43
228.46	1252.21
228.72	1301.36
228.99	1322.57
229.26	1311.07
229.53	1246.00
229.80	1286.14
230.06	1315.93
230.33	1314.07
230.60	1237.07
230.87	1289.57
231.14	1339.79
231.40	1344.29
231.67	1274.43
231.94	1304.79
232.21	1340.00
232.48	1342.93
232.74	1265.14
233.01	1287.43
233.28	1324.57
233.55	1339.29
233.82	1271.64
234.08	1292.21
234.35	1329.07
234.62	1343.79
234.89	1280.07
235.15	1296.64
235.42	1309.36
235.69	1316.57
235.96	1270.79
236.23	1300.21
236.49	1313.21
236.76	1316.57
237.03	1258.86
237.30	1286.00
237.57	1315.57
237.83	1321.93
238.10	1257.21
238.37	1283.29
238.64	1309.14
238.90	1308.36
239.17	1254.07
239.44	1278.86
239.71	1293.71
239.98	1306.36
240.24	1267.14
240.51	1310.21
240.78	1345.57
241.05	1341.14
241.31	1275.71
241.58	1307.50
241.85	1326.86
242.12	1332.79
242.38	1262.79
242.65	1285.86
242.92	1322.14
243.19	1339.79
243.46	1285.57
243.72	1330.07
243.99	1341.86
244.26	1340.50
244.53	1290.14
244.79	1328.43
245.06	1339.71
245.33	1340.93
245.60	1259.29
245.86	1290.50
246.13	1316.93
246.40	1300.29
246.67	1227.36
246.93	1265.29
247.20	1292.57
247.47	1315.14
247.74	1257.93
248.00	1285.43
248.27	1323.07
248.54	1328.43
248.81	1273.21
249.07	1315.57
249.34	1328.57
249.61	1340.64
249.88	1290.86
250.14	1315.43
250.41	1335.71
250.68	1338.79
250.95	1273.07
251.21	1318.14
251.48	1334.71
251.75	1336.07
252.02	1292.64
252.28	1339.93
252.55	1359.86
252.82	1334.50
253.08	1248.86
253.35	1290.14
253.62	1335.29
253.89	1338.43
254.15	1257.21
254.42	1279.79
254.69	1325.29
254.96	1336.93
255.22	1261.14
255.49	1273.71
255.76	1298.71
256.02	1319.64
256.29	1268.43
256.56	1298.43
256.83	1325.93
257.09	1336.71
257.36	1283.36
257.63	1299.79
257.90	1301.93
258.16	1310.71
258.43	1258.79
258.70	1306.64
258.96	1322.57
259.23	1318.57
259.50	1267.14
259.77	1314.64
260.03	1331.71
260.30	1319.86
260.57	1242.29
260.83	1278.07
261.10	1300.36
261.37	1290.50
261.64	1225.29
261.90	1269.00
262.17	1308.57
262.44	1313.21
262.70	1254.50
262.97	1303.43
263.24	1337.50
263.50	1346.79
263.77	1286.21
264.04	1313.07
264.31	1333.43
264.57	1337.64
264.84	1254.14
265.11	1272.00
265.37	1298.14
265.64	1303.14
265.91	1250.64
266.17	1302.71
266.44	1329.00
266.71	1344.43
266.97	1297.07
267.24	1314.29
267.51	1324.79
267.78	1321.71
268.04	1249.29
268.31	1287.93
268.58	1293.93
268.84	1294.79
269.11	1240.71
269.38	1271.79
269.64	1288.43
269.91	1286.36
270.18	1216.14
270.44	1279.43
270.71	1314.93
270.98	1324.00
271.24	1263.64
271.51	1302.93
271.78	1338.29
272.04	1357.79
272.31	1281.21
272.58	1305.14
272.84	1320.07
273.11	1332.43
273.38	1275.29
273.64	1296.14
273.91	1304.79
274.18	1319.07
274.44	1278.64
274.71	1330.00
274.98	1355.43
275.24	1363.29
275.51	1301.36
275.78	1327.50
276.04	1342.00
276.31	1321.14
276.58	1261.86
276.84	1294.43
277.11	1304.36
277.38	1311.00
277.64	1267.14
277.91	1294.57
278.18	1331.00
278.44	1334.14
278.71	1281.29
278.98	1310.14
279.24	1322.36
279.51	1309.86
279.78	1263.71
280.04	1307.36
280.31	1315.43
280.58	1312.00
280.84	1249.71
281.11	1275.57
281.37	1291.21
281.64	1273.93
281.91	1197.64
282.17	1227.14
282.44	1243.86
282.71	1262.07
282.97	1214.29
283.24	1240.93
283.51	1268.64
283.77	1270.64
284.04	1215.71
284.31	1244.71
284.57	1273.36
284.84	1290.93
285.10	1258.79
285.37	1294.71
285.64	1323.86
285.90	1346.64
286.17	1301.29
286.44	1319.36
286.70	1328.43
286.97	1330.93
287.23	1280.64
287.50	1308.29
287.77	1308.79
288.03	1296.07
288.30	1243.93
288.57	1287.36
288.83	1311.29
289.10	1308.57
289.36	1248.21
289.63	1280.50
289.90	1307.57
290.16	1312.43
290.43	1239.86
290.70	1256.64
290.96	1281.00
291.23	1293.79
291.49	1241.36
291.76	1264.71
292.03	1283.86
292.29	1298.21
292.56	1246.57
292.82	1273.93
293.09	1291.64
293.36	1311.57
293.62	1269.43
293.89	1306.64
294.15	1321.29
294.42	1321.86
294.69	1265.71
294.95	1282.50
295.22	1290.14
295.48	1313.93
295.75	1264.36
296.02	1299.14
296.28	1314.86
296.55	1328.14
296.81	1297.14
297.08	1326.79
297.35	1319.07
297.61	1313.86
297.88	1255.93
298.14	1288.07
298.41	1294.43
298.68	1291.71
298.94	1238.64
299.21	1264.50
299.47	1275.86
299.74	1278.00
300.01	1222.07
300.27	1251.86
300.54	1260.57
300.80	1258.71
301.07	1209.64
301.33	1232.29
301.60	1252.07
301.87	1270.00
302.13	1229.00
302.40	1274.93
302.66	1291.79
302.93	1289.29
303.19	1248.64
303.46	1285.21
303.73	1292.71
303.99	1293.93
304.26	1237.50
304.52	1265.71
304.79	1286.50
305.05	1297.64
305.32	1253.71
305.59	1297.57
305.85	1320.07
306.12	1332.29
306.38	1298.21
306.65	1334.93
306.91	1344.64
307.18	1340.43
307.45	1278.29
307.71	1288.00
307.98	1281.71
308.24	1277.57
308.51	1238.21
308.77	1271.00
309.04	1280.93
309.30	1292.36
309.57	1260.00
309.84	1302.43
310.10	1320.50
310.37	1330.57
310.63	1271.86
310.90	1314.36
311.16	1333.21
311.43	1338.50
311.69	1285.00
311.96	1300.07
312.23	1280.79
312.49	1293.93
312.76	1245.29
313.02	1251.86
313.29	1256.36
313.55	1263.21
313.82	1217.86
314.08	1259.50
314.35	1270.07
314.61	1279.50
314.88	1265.00
315.14	1299.36
315.41	1304.14
315.68	1325.79
315.94	1286.36
316.21	1310.71
316.47	1318.71
316.74	1305.29
317.00	1263.29
317.27	1292.64
317.53	1298.93
317.80	1319.43
318.06	1280.14
318.33	1301.93
318.59	1315.93
318.86	1321.43
319.12	1282.71
319.39	1310.00
319.65	1301.00
319.92	1306.43
320.19	1264.29
320.45	1290.64
320.72	1305.14
320.98	1317.86
321.25	1268.07
321.51	1289.71
321.78	1297.86
322.04	1296.86
322.31	1242.71
322.57	1255.93
322.84	1260.64
323.10	1271.50
323.37	1241.71
323.63	1273.64
323.90	1292.93
324.16	1315.64
324.43	1267.29
324.69	1276.21
324.96	1280.14
325.22	1288.36
325.49	1241.00
325.75	1255.29
326.02	1244.64
326.28	1256.79
326.55	1229.43
326.81	1254.36
327.08	1266.21
327.34	1284.93
327.61	1249.43
327.87	1286.64
328.14	1297.14
328.40	1306.71
328.67	1261.93
328.93	1275.50
329.20	1282.50
329.46	1290.29
329.73	1244.93
329.99	1272.36
330.26	1273.57
330.52	1283.86
330.79	1248.86
331.05	1266.14
331.32	1275.93
331.58	1286.43
331.85	1247.00
332.11	1285.00
332.38	1301.86
332.64	1325.07
332.91	1285.64
333.17	1300.07
333.43	1310.43
333.70	1322.64
333.96	1272.50
334.23	1289.79
334.49	1282.43
334.76	1301.86
335.02	1271.14
335.29	1291.50
335.55	1285.71
335.82	1292.43
336.08	1251.00
336.35	1267.36
336.61	1251.50
336.88	1253.71
337.14	1213.29
337.41	1245.14
337.67	1266.50
337.93	1288.50
338.20	1257.79
338.46	1282.57
338.73	1289.43
338.99	1301.71
339.26	1264.07
339.52	1277.00
339.79	1272.29
340.05	1276.29
340.32	1248.00
340.58	1281.57
340.85	1292.64
341.11	1310.86
341.37	1275.79
341.64	1295.29
341.90	1303.07
342.17	1327.14
342.43	1290.93
342.70	1314.14
342.96	1306.07
343.23	1305.00
343.49	1257.14
343.75	1283.07
344.02	1273.93
344.28	1283.71
344.55	1243.71
344.81	1265.07
345.08	1277.14
345.34	1300.43
345.61	1264.14
345.87	1292.93
346.13	1298.07
346.40	1316.21
346.66	1291.29
346.93	1325.71
347.19	1329.43
347.46	1330.79
347.72	1275.21
347.98	1299.64
348.25	1308.64
348.51	1333.29
348.78	1298.57
349.04	1329.86
349.31	1338.64
349.57	1361.93
349.83	1313.36
350.10	1322.07
350.36	1302.07
350.63	1295.50
350.89	1252.93
351.16	1263.50
351.42	1261.79
351.68	1280.29
351.95	1241.43
352.21	1253.57
352.48	1243.50
352.74	1245.93
353.00	1222.00
353.27	1244.86
353.53	1239.14
353.80	1263.21
354.06	1244.29
354.33	1295.64
354.59	1316.86
354.85	1336.57
355.12	1311.71
355.38	1334.43
355.65	1331.71
355.91	1342.36
356.17	1294.07
356.44	1306.36
356.70	1297.07
356.97	1311.07
357.23	1300.64
357.49	1337.79
357.76	1337.29
358.02	1351.64
358.29	1318.57
358.55	1337.21
358.81	1331.50
359.08	1308.64
359.34	1248.07
359.61	1271.00
359.87	1266.79
360.13	1271.71
360.40	1244.43
360.66	1250.29
360.92	1253.64
361.19	1268.64
361.45	1223.29
361.72	1240.64
361.98	1249.50
362.24	1261.43
362.51	1227.07
362.77	1244.64
363.04	1251.71
363.30	1281.29
363.56	1254.36
363.83	1263.36
364.09	1258.21
364.35	1288.93
364.62	1276.14
364.88	1295.64
365.15	1289.21
365.41	1304.93
365.67	1281.79
365.94	1306.14
366.20	1295.14
366.46	1297.79
366.73	1262.21
366.99	1281.50
367.26	1287.36
367.52	1315.93
367.78	1289.36
368.05	1317.71
368.31	1321.07
368.57	1346.21
368.84	1311.50
369.10	1313.00
369.36	1294.71
369.63	1305.29
369.89	1273.07
370.16	1295.14
370.42	1286.79
370.68	1309.79
370.95	1271.79
371.21	1278.93
371.47	1277.43
371.74	1296.36
372.00	1267.93
372.26	1284.14
372.53	1272.29
372.79	1316.07
373.05	1301.79
373.32	1319.29
373.58	1302.71
373.84	1310.43
374.11	1270.50
374.37	1287.43
374.63	1268.21
374.90	1287.71
375.16	1262.36
375.43	1282.36
375.69	1277.57
375.95	1301.14
376.22	1272.07
376.48	1302.36
376.74	1291.21
377.01	1305.86
377.27	1279.79
377.53	1307.43
377.80	1313.93
378.06	1354.00
378.32	1324.93
378.59	1349.21
378.85	1334.29
379.11	1351.00
379.38	1311.64
379.64	1308.00
379.90	1274.86
380.16	1258.14
380.43	1228.64
380.69	1256.64
380.95	1247.71
381.22	1265.14
381.48	1235.43
381.74	1249.71
382.01	1261.71
382.27	1276.64
382.53	1236.71
382.80	1266.21
383.06	1258.00
383.32	1273.79
383.59	1257.50
383.85	1293.71
384.11	1291.00
384.38	1302.21
384.64	1262.43
384.90	1283.00
385.17	1298.71
385.43	1306.36
385.69	1258.14
385.95	1271.71
386.22	1276.50
386.48	1297.21
386.74	1262.64
387.01	1270.64
387.27	1277.36
387.53	1297.86
387.80	1270.00
388.06	1283.79
388.32	1284.86
388.58	1314.71
388.85	1280.07
389.11	1281.36
389.37	1270.07
389.64	1272.00
389.90	1244.86
390.16	1246.79
390.42	1239.57
390.69	1267.50
390.95	1244.71
391.21	1286.79
391.48	1308.71
391.74	1328.43
392.00	1303.36
392.26	1313.07
392.53	1292.71
392.79	1300.57
393.05	1242.21
393.32	1242.43
393.58	1244.36
393.84	1254.71
394.10	1212.50
394.37	1227.14
394.63	1225.36
394.89	1243.00
395.16	1210.07
395.42	1210.00
395.68	1208.21
395.94	1245.86
396.21	1244.29
396.47	1274.14
396.73	1281.71
396.99	1312.93
397.26	1298.00
397.52	1331.29
397.78	1326.21
398.05	1319.57
398.31	1288.57
398.57	1307.14
398.83	1297.93
399.10	1296.79
399.36	1251.43
399.62	1258.71
399.88	1256.93
400.15	1270.00
400.41	1235.43
400.67	1252.86
400.93	1270.00
401.20	1312.43
401.46	1292.71
401.72	1317.00
401.98	1315.93
402.25	1327.64
402.51	1294.14
402.77	1312.64
403.03	1286.29
403.30	1293.21
403.56	1255.86
403.82	1267.14
404.08	1261.79
404.35	1269.50
404.61	1220.79
404.87	1244.21
405.13	1250.50
405.40	1278.29
405.66	1258.00
405.92	1282.36
406.18	1280.07
406.45	1301.64
406.71	1273.57
406.97	1307.79
407.23	1313.36
407.50	1333.86
407.76	1311.07
408.02	1333.57
408.28	1333.36
408.54	1344.00
408.81	1302.21
409.07	1308.36
409.33	1293.29
409.59	1299.64
409.86	1263.64
410.12	1292.21
410.38	1286.50
410.64	1290.21
410.90	1260.71
411.17	1291.79
411.43	1290.00
411.69	1299.29
411.95	1254.71
412.22	1280.29
412.48	1281.50
412.74	1288.79
413.00	1243.86
413.26	1273.50
413.53	1287.79
413.79	1317.64
414.05	1288.21
414.31	1318.21
414.57	1317.50
414.84	1315.57
415.10	1265.93
415.36	1283.93
415.62	1264.93
415.89	1253.00
416.15	1209.79
416.41	1237.14
416.67	1259.57
416.93	1287.86
417.20	1262.14
417.46	1297.21
417.72	1321.79
417.98	1334.79
418.24	1285.36
418.51	1283.07
418.77	1273.50
419.03	1272.14
419.29	1218.07
419.55	1234.07
419.81	1229.21
420.08	1247.43
420.34	1231.21
420.60	1240.64
420.86	1247.79
421.12	1269.71
421.39	1229.93
421.65	1250.71
421.91	1259.71
422.17	1281.64
422.43	1259.14
422.70	1273.21
422.96	1271.79
423.22	1292.79
423.48	1265.14
423.74	1280.14
424.00	1266.07
424.27	1282.14
424.53	1251.00
424.79	1282.14
425.05	1278.93
425.31	1282.36
425.58	1247.79
425.84	1279.00
426.10	1273.86
426.36	1286.14
426.62	1241.71
426.88	1259.50
427.15	1267.86
427.41	1286.36
427.67	1241.50
427.93	1272.57
428.19	1271.93
428.45	1286.93
428.72	1263.86
428.98	1290.36
429.24	1291.79
429.50	1314.36
429.76	1286.21
430.02	1314.07
430.28	1313.07
430.55	1327.43
430.81	1298.64
431.07	1317.50
431.33	1309.79
431.59	1307.21
431.85	1263.29
432.12	1289.71
432.38	1272.57
432.64	1256.07
432.90	1213.43
433.16	1236.07
433.42	1244.43
433.68	1267.71
433.95	1233.64
434.21	1269.21
434.47	1294.64
434.73	1315.50
434.99	1290.36
435.25	1319.14
435.51	1304.71
435.78	1313.79
436.04	1272.07
436.30	1283.36
436.56	1290.43
436.82	1292.00
437.08	1232.71
437.34	1241.21
437.60	1240.50
437.87	1266.00
438.13	1226.00
438.39	1234.21
438.65	1231.43
438.91	1239.79
439.17	1215.50
439.43	1237.86
439.70	1232.93
439.96	1252.57
440.22	1213.14
440.48	1235.93
440.74	1247.29
441.00	1257.14
441.26	1214.50
441.52	1228.21
441.78	1231.43
442.05	1255.93
442.31	1220.93
442.57	1234.50
442.83	1246.50
443.09	1267.29
443.35	1237.57
443.61	1258.29
443.87	1262.50
444.14	1281.36
444.40	1252.43
444.66	1266.43
444.92	1262.21
445.18	1262.07
445.44	1225.00
445.70	1232.79
445.96	1225.07
446.22	1239.86
446.48	1216.14
446.75	1239.43
447.01	1258.36
447.27	1291.36
447.53	1273.79
447.79	1294.00
448.05	1285.79
448.31	1282.71
448.57	1245.21
448.83	1260.14
449.09	1245.79
449.36	1248.79
449.62	1228.21
449.88	1266.50
450.14	1282.29
450.40	1291.07
450.66	1245.29
450.92	1252.64
451.18	1261.21
451.44	1260.57
451.70	1227.00
451.96	1254.50
452.22	1266.43
452.49	1274.57
452.75	1240.43
453.01	1257.14
453.27	1273.71
453.53	1288.86
453.79	1256.00
454.05	1276.64
454.31	1277.57
454.57	1285.07
454.83	1246.57
455.09	1263.64
455.35	1250.29
455.61	1241.57
455.88	1194.21
456.14	1218.50
456.40	1224.57
456.66	1227.07
456.92	1180.86
457.18	1213.00
457.44	1226.14
457.70	1246.93
457.96	1219.93
458.22	1253.07
458.48	1269.14
458.74	1295.00
459.00	1250.79
459.26	1262.86
459.52	1257.93
459.78	1281.14
460.05	1245.71
460.31	1259.07
460.57	1246.43
460.83	1254.21
461.09	1212.57
461.35	1230.07
461.61	1220.50
461.87	1227.36
462.13	1195.71
462.39	1222.14
462.65	1237.14
462.91	1256.50
463.17	1231.00
463.43	1246.79
463.69	1234.07
463.95	1236.36
464.21	1203.79
464.47	1221.93
464.73	1241.36
464.99	1260.00
465.25	1229.36
465.51	1264.86
465.77	1272.50
466.04	1283.43
466.30	1256.00
466.56	1268.14
466.82	1266.29
467.08	1263.86
467.34	1222.00
467.60	1247.21
467.86	1254.79
468.12	1257.57
468.38	1222.79
468.64	1228.07
468.90	1241.14
469.16	1265.07
469.42	1226.50
469.68	1231.64
469.94	1238.50
470.20	1258.79
470.46	1254.36
470.72	1272.29
470.98	1262.29
471.24	1277.86
471.50	1245.64
471.76	1248.00
472.02	1225.21
472.28	1212.86
472.54	1175.07
472.80	1199.50
473.06	1198.71
473.32	1214.93
473.58	1189.86
473.84	1212.64
474.10	1208.00
474.36	1212.79
474.62	1176.50
474.88	1199.86
475.14	1213.79
475.40	1233.86
475.66	1211.21
475.92	1245.43
476.18	1264.86
476.44	1272.21
476.70	1236.71
476.96	1250.00
477.22	1246.36
477.48	1241.07
477.74	1202.43
478.00	1215.21
478.26	1225.00
478.52	1234.21
478.78	1210.79
479.04	1243.21
479.30	1260.86
479.56	1268.29
479.82	1235.57
480.08	1263.71
480.34	1269.50
480.60	1264.50
480.86	1227.00
481.12	1246.71
481.38	1268.79
481.64	1293.00
481.90	1246.57
482.16	1243.71
482.42	1232.50
482.68	1220.14
482.94	1188.71
483.20	1206.29
483.46	1208.93
483.72	1224.57
483.98	1208.07
484.24	1246.36
484.50	1285.14
484.76	1321.57
485.02	1284.93
485.28	1303.79
485.54	1306.93
485.80	1324.21
486.05	1291.86
486.31	1294.64
486.57	1276.43
486.83	1288.50
487.09	1248.14
487.35	1270.50
487.61	1270.07
487.87	1284.07
488.13	1240.21
488.39	1250.43
488.65	1252.79
488.91	1279.36
489.17	1248.71
489.43	1262.14
489.69	1260.21
489.95	1272.86
490.21	1240.43
490.47	1255.79
490.73	1248.00
490.99	1254.21
491.25	1227.57
491.51	1247.07
491.76	1252.93
492.02	1265.57
492.28	1234.14
492.54	1250.57
492.80	1273.71
493.06	1309.93
493.32	1278.64
493.58	1310.57
493.84	1315.07
494.10	1318.29
494.36	1284.50
494.62	1291.43
494.88	1274.86
495.14	1283.43
495.40	1237.64
495.66	1256.29
495.91	1264.36
496.17	1264.29
496.43	1229.07
496.69	1245.00
496.95	1244.43
497.21	1249.64
497.47	1218.50
497.73	1236.93
497.99	1247.36
498.25	1251.79
498.51	1216.57
498.77	1239.93
499.03	1259.50
499.29	1255.86
499.54	1216.64
499.80	1231.07
500.06	1241.71
500.32	1255.43
500.58	1228.00
500.84	1242.43
501.10	1255.79
501.36	1267.36
501.62	1239.14
501.88	1257.43
502.14	1256.79
502.39	1258.36
502.65	1225.79
502.91	1247.43
503.17	1250.64
503.43	1249.36
503.69	1206.64
503.95	1221.71
504.21	1223.93
504.47	1229.64
504.73	1200.86
504.99	1223.43
505.24	1233.43
505.50	1240.36
505.76	1208.79
506.02	1235.64
506.28	1241.14
506.54	1243.29
506.80	1202.36
507.06	1223.00
507.32	1241.71
507.57	1258.43
507.83	1229.86
508.09	1265.79
508.35	1273.00
508.61	1284.07
508.87	1253.00
509.13	1267.43
509.39	1268.50
509.65	1258.86
509.90	1208.00
510.16	1224.00
510.42	1221.36
510.68	1218.64
510.94	1172.29
511.20	1190.57
511.46	1213.29
511.72	1230.43
511.97	1191.14
512.23	1224.50
512.49	1242.57
512.75	1268.14
513.01	1240.79
513.27	1251.71
513.53	1248.50
513.79	1265.36
514.04	1227.36
514.30	1239.36
514.56	1226.50
514.82	1234.29
515.08	1201.86
515.34	1217.79
515.60	1235.93
515.85	1256.86
516.11	1233.93
516.37	1265.50
516.63	1261.29
516.89	1286.71
517.15	1262.29
517.41	1265.43
517.66	1264.79
517.92	1282.79
518.18	1249.93
518.44	1273.86
518.70	1268.64
518.96	1261.14
519.22	1228.71
519.47	1247.86
519.73	1249.21
519.99	1262.00
520.25	1234.71
520.51	1254.43
520.77	1269.57
521.02	1278.71
521.28	1246.36
521.54	1262.86
521.80	1264.79
522.06	1267.93
522.32	1235.79
522.58	1264.50
522.83	1274.00
523.09	1288.64
523.35	1248.36
523.61	1258.86
523.87	1263.14
524.13	1259.36
524.38	1221.50
524.64	1244.14
524.90	1243.79
525.16	1260.71
525.42	1242.07
525.67	1262.00
525.93	1275.57
526.19	1282.50
526.45	1254.14
526.71	1271.43
526.97	1284.50
527.22	1284.93
527.48	1257.00
527.74	1282.07
528.00	1285.64
528.26	1288.36
528.52	1250.93
528.77	1265.71
529.03	1267.57
529.29	1254.93
529.55	1219.93
529.81	1250.71
530.06	1255.29
530.32	1270.43
530.58	1231.86
530.84	1254.64
531.10	1274.36
531.35	1267.36
531.61	1217.21
531.87	1235.79
532.13	1238.71
532.39	1255.14
532.64	1237.57
532.90	1262.86
533.16	1281.00
533.42	1302.93
533.68	1278.21
533.93	1291.36
534.19	1293.43
534.45	1299.43
534.71	1268.50
534.97	1294.79
535.22	1293.57
535.48	1294.86
535.74	1265.29
536.00	1272.29
536.26	1263.50
536.51	1261.00
536.77	1205.43
537.03	1219.79
537.29	1218.07
537.54	1223.36
537.80	1204.14
538.06	1233.86
538.32	1237.93
538.58	1253.57
538.83	1226.36
539.09	1266.07
539.35	1283.57
539.61	1287.71
539.86	1239.43
540.12	1255.29
540.38	1264.00
540.64	1267.57
540.90	1225.79
541.15	1237.64
541.41	1234.14
541.67	1246.14
541.93	1215.71
542.18	1230.57
542.44	1238.93
542.70	1236.86
542.96	1201.29
543.21	1227.57
543.47	1236.43
543.73	1249.14
543.99	1213.07
544.25	1223.29
544.50	1226.14
544.76	1236.50
545.02	1210.00
545.28	1235.93
545.53	1239.00
545.79	1255.29
546.05	1222.57
546.31	1246.21
546.56	1250.71
546.82	1245.00
547.08	1195.64
547.34	1213.00
547.59	1225.43
547.85	1242.00
548.11	1207.50
548.37	1233.57
548.62	1242.36
548.88	1250.86
549.14	1228.93
549.40	1255.21
549.65	1265.29
549.91	1284.43
550.17	1244.36
550.42	1267.79
550.68	1284.93
550.94	1291.14
551.20	1241.57
551.45	1247.79
551.71	1247.86
551.97	1274.14
552.23	1236.86
552.48	1249.43
552.74	1247.21
553.00	1256.64
553.26	1227.79
553.51	1238.50
553.77	1231.29
554.03	1245.86
554.28	1217.57
554.54	1244.14
554.80	1251.50
555.06	1255.14
555.31	1222.57
555.57	1253.57
555.83	1255.64
556.08	1264.93
556.34	1242.57
556.60	1266.07
556.86	1293.57
557.11	1317.57
557.37	1258.79
557.63	1262.86
557.88	1271.43
558.14	1267.43
558.40	1231.64
558.66	1243.57
558.91	1236.93
559.17	1269.21
559.43	1247.29
559.68	1254.50
559.94	1260.86
560.20	1267.14
560.46	1231.57
560.71	1253.14
560.97	1254.64
561.23	1275.79
561.48	1253.57
561.74	1275.21
562.00	1286.71
562.25	1294.07
562.51	1259.21
562.77	1270.00
563.03	1258.07
563.28	1257.21
563.54	1223.93
563.80	1239.00
564.05	1242.00
564.31	1248.43
564.57	1205.71
564.82	1230.71
565.08	1233.79
565.34	1243.43
565.59	1213.79
565.85	1240.71
566.11	1238.36
566.36	1243.71
566.62	1214.57
566.88	1250.93
567.13	1259.79
567.39	1283.93
567.65	1262.50
567.90	1294.29
568.16	1308.36
568.42	1313.64
568.68	1263.29
568.93	1268.43
569.19	1256.64
569.45	1238.93
569.70	1205.93
569.96	1238.14
570.22	1253.64
570.47	1289.93
570.73	1261.00
570.99	1269.71
571.24	1287.21
571.50	1305.86
571.76	1268.57
572.01	1284.21
572.27	1262.93
572.52	1271.21
572.78	1235.07
573.04	1224.36
573.29	1209.36
573.55	1222.64
573.81	1192.14
574.06	1230.14
574.32	1233.64
574.58	1254.86
574.83	1246.93
575.09	1277.79
575.35	1273.71
575.60	1273.43
575.86	1246.64
576.12	1283.57
576.37	1283.43
576.63	1304.64
576.89	1275.79
577.14	1289.07
577.40	1294.71
577.65	1286.29
577.91	1241.14
578.17	1282.71
578.42	1282.93
578.68	1294.79
578.94	1264.00
579.19	1271.57
579.45	1266.14
579.71	1268.21
579.96	1216.64
580.22	1228.57
580.47	1221.50
580.73	1246.64
580.99	1227.43
581.24	1261.93
581.50	1277.43
581.76	1307.29
582.01	1282.79
582.27	1298.14
582.52	1289.57
582.78	1306.86
583.04	1264.57
583.29	1277.43
583.55	1271.43
583.81	1283.29
584.06	1247.36
584.32	1259.50
584.57	1259.50
584.83	1276.93
585.09	1240.29
585.34	1242.07
585.60	1230.50
585.85	1254.64
586.11	1237.07
586.37	1248.36
586.62	1249.71
586.88	1266.36
587.13	1250.50
587.39	1272.57
587.65	1266.00
587.90	1269.07
588.16	1242.14
588.41	1260.43
588.67	1249.07
588.93	1250.79
589.18	1221.93
589.44	1240.64
589.69	1241.29
589.95	1248.43
590.21	1214.21
590.46	1251.57
590.72	1252.57
590.97	1260.00
591.23	1226.07
591.49	1240.36
591.74	1248.14
592.00	1264.57
592.25	1244.43
592.51	1279.79
592.77	1287.00
593.02	1296.21
593.28	1272.79
593.53	1286.93
593.79	1279.36
594.04	1269.14
594.30	1221.64
594.56	1234.71
594.81	1243.07
595.07	1261.79
595.32	1236.21
595.58	1253.71
595.83	1248.43
596.09	1254.43
596.35	1215.43
596.60	1234.86
596.86	1230.29
597.11	1237.00
597.37	1214.14
597.62	1240.07
597.88	1244.07
598.14	1276.57
598.39	1259.14
598.65	1273.86
598.90	1275.07
599.16	1280.86
599.41	1249.43
599.67	1279.14
599.93	1271.00
600.18	1268.07
600.44	1236.14
600.69	1254.14
600.95	1265.79
601.20	1291.79
601.46	1257.21
601.71	1275.50
601.97	1289.64
602.22	1310.36
602.48	1290.29
602.74	1302.79
602.99	1299.57
603.25	1313.36
603.50	1280.71
603.76	1287.07
604.01	1277.64
604.27	1271.71
604.52	1233.07
604.78	1239.00
605.03	1231.07
605.29	1237.50
605.55	1201.79
605.80	1230.07
606.06	1247.14
606.31	1270.29
606.57	1254.36
606.82	1277.21
607.08	1284.07
607.33	1303.86
607.59	1265.36
607.84	1267.00
608.10	1266.71
608.35	1281.14
608.61	1249.36
608.86	1265.86
609.12	1267.29
609.37	1279.14
609.63	1255.21
609.89	1263.93
610.14	1242.79
610.40	1245.71
610.65	1214.36
610.91	1232.00
611.16	1230.07
611.42	1246.00
611.67	1223.21
611.93	1244.57
612.18	1255.43
612.44	1274.29
612.69	1254.57
612.95	1282.71
613.20	1273.00
613.46	1270.00
613.71	1241.57
613.97	1253.71
614.22	1258.14
614.48	1264.14
614.73	1231.86
614.99	1256.57
615.24	1268.50
615.50	1282.79
615.75	1256.43
616.01	1264.50
616.26	1256.36
616.52	1256.07
616.77	1221.29
617.03	1238.21
617.28	1233.57
617.54	1238.00
617.79	1207.07
618.05	1227.14
618.30	1233.93
618.56	1248.71
618.81	1218.86
619.07	1251.86
619.32	1269.29
619.58	1289.86
619.83	1265.00
620.09	1292.07
620.34	1297.57
620.60	1316.00
620.85	1282.21
621.11	1291.00
621.36	1302.29
621.62	1322.71
621.87	1278.14
622.12	1283.79
622.38	1279.86
622.63	1303.21
622.89	1292.14
623.14	1298.00
623.40	1284.43
623.65	1310.29
623.91	1286.14
624.16	1303.00
624.42	1301.07
624.67	1307.71
624.93	1270.29
625.18	1283.07
625.44	1276.14
625.69	1288.79
625.94	1258.50
626.20	1257.93
626.45	1239.64
626.71	1248.64
626.96	1226.07
627.22	1246.43
627.47	1245.50
627.73	1246.57
627.98	1210.79
628.24	1234.79
628.49	1252.93
628.75	1282.43
629.00	1251.71
629.25	1268.14
629.51	1280.64
629.76	1308.43
630.02	1276.64
630.27	1278.00
630.53	1261.36
630.78	1263.14
631.04	1230.50
631.29	1247.00
631.54	1247.71
631.80	1255.86
632.05	1214.43
632.31	1228.36
632.56	1238.14
632.82	1262.93
633.07	1237.21
633.32	1240.43
633.58	1237.71
633.83	1267.86
634.09	1241.64
634.34	1250.43
634.60	1244.93
634.85	1250.57
635.10	1230.43
635.36	1259.71
635.61	1264.14
635.87	1279.79
636.12	1255.36
636.38	1275.14
636.63	1283.29
636.88	1300.29
637.14	1276.50
637.39	1291.64
637.65	1291.50
637.90	1306.00
638.16	1274.07
638.41	1285.64
638.66	1291.43
638.92	1296.07
639.17	1279.93
639.43	1310.71
639.68	1319.36
639.93	1330.36
640.19	1295.14
640.44	1311.50
640.70	1321.79
640.95	1329.43
641.20	1296.93
641.46	1314.50
641.71	1309.79
641.97	1327.21
642.22	1274.93
642.47	1261.29
642.73	1254.93
642.98	1262.21
643.24	1231.71
643.49	1255.57
643.74	1257.43
644.00	1285.00
644.25	1268.36
644.51	1271.43
644.76	1249.00
645.01	1238.14
645.27	1207.21
645.52	1239.21
645.78	1250.29
646.03	1277.79
646.28	1268.21
646.54	1303.36
646.79	1323.50
647.05	1334.71
647.30	1295.14
647.55	1304.79
647.81	1300.21
648.06	1299.64
648.31	1260.29
648.57	1274.14
648.82	1279.29
649.08	1277.07
649.33	1238.07
649.58	1259.79
649.84	1266.36
650.09	1283.07
650.34	1251.93
650.60	1264.43
650.85	1271.50
651.11	1277.50
651.36	1247.14
651.61	1273.64
651.87	1285.64
652.12	1306.50
652.37	1290.86
652.63	1317.57
652.88	1334.14
653.13	1332.00
653.39	1305.14
653.64	1321.07
653.90	1319.86
654.15	1322.64
654.40	1287.07
654.66	1302.00
654.91	1307.57
655.16	1304.00
655.42	1261.71
655.67	1249.93
655.92	1240.36
656.18	1263.57
656.43	1235.64
656.68	1251.86
656.94	1241.43
657.19	1244.50
657.44	1241.93
657.70	1271.50
657.95	1260.00
658.20	1275.64
658.46	1245.93
658.71	1265.21
658.96	1269.86
659.22	1268.71
659.47	1231.50
659.72	1242.57
659.98	1218.07
660.23	1210.86
660.48	1183.79
660.74	1201.93
660.99	1209.50
661.24	1226.50
661.50	1202.50
661.75	1230.21
662.00	1255.00
662.26	1283.79
662.51	1256.50
662.76	1268.43
663.02	1266.86
663.27	1272.43
663.52	1245.14
663.78	1252.43
664.03	1236.07
664.28	1243.21
664.54	1220.29
664.79	1237.79
665.04	1248.86
665.30	1265.50
665.55	1254.21
665.80	1288.14
666.06	1294.79
666.31	1294.00
666.56	1256.21
666.81	1277.71
667.07	1281.14
667.32	1277.93
667.57	1235.14
667.83	1239.21
668.08	1239.29
668.33	1259.50
668.59	1215.86
668.84	1218.07
669.09	1220.36
669.34	1225.43
669.60	1205.43
669.85	1233.79
670.10	1217.71
670.36	1222.43
670.61	1205.79
670.86	1231.43
671.12	1241.36
671.37	1257.57
671.62	1237.50
671.87	1278.21
672.13	1305.21
672.38	1323.00
672.63	1276.57
672.89	1293.71
673.14	1304.57
673.39	1302.00
673.64	1260.36
673.90	1251.50
674.15	1230.43
674.40	1241.14
674.66	1200.14
674.91	1189.36
675.16	1182.93
675.41	1190.71
675.67	1169.86
675.92	1199.93
676.17	1215.79
676.42	1236.64
676.68	1212.79
676.93	1241.29
677.18	1263.00
677.44	1285.50
677.69	1242.43
677.94	1247.21
678.19	1253.93
678.45	1286.93
678.70	1262.86
678.95	1265.57
679.20	1271.29
679.46	1301.64
679.71	1269.93
679.96	1281.86
680.21	1281.29
680.47	1298.43
680.72	1271.64
680.97	1284.00
681.22	1276.43
681.48	1335.86
681.73	1409.93
681.98	1437.79
682.23	1427.14
682.49	1437.00
682.74	1396.64
682.99	1414.29
683.24	1374.07
683.50	1286.29
683.75	1231.64
684.00	1244.93
684.25	1242.29
684.51	1245.86
684.76	1213.57
685.01	1229.36
685.26	1227.07
685.52	1249.57
685.77	1221.79
686.02	1236.43
686.27	1248.07
686.53	1267.29
686.78	1243.14
687.03	1256.00
687.28	1263.71
687.53	1286.86
687.79	1268.50
688.04	1284.36
688.29	1290.71
688.54	1298.21
688.80	1269.07
689.05	1274.14
689.30	1272.21
689.55	1282.29
689.81	1254.14
690.06	1252.50
690.31	1259.50
690.56	1276.50
690.81	1244.07
691.07	1252.79
691.32	1254.57
691.57	1271.36
691.82	1249.07
692.07	1265.64
692.33	1256.86
692.58	1271.71
692.83	1253.71
693.08	1284.79
693.34	1286.57
693.59	1308.29
693.84	1265.14
694.09	1274.21
694.34	1278.07
694.60	1282.29
694.85	1225.64
695.10	1228.50
695.35	1226.36
695.60	1244.29
695.86	1227.43
696.11	1244.64
696.36	1240.21
696.61	1254.71
696.86	1230.86
697.12	1236.86
697.37	1246.79
697.62	1270.07
697.87	1234.07
698.12	1250.64
698.37	1260.79
698.63	1274.64
698.88	1255.50
699.13	1274.29
699.38	1251.86
699.63	1252.86
699.89	1232.71
700.14	1245.57
700.39	1259.07
700.64	1277.50
700.89	1243.21
701.14	1269.57
701.40	1290.93
701.65	1302.57
701.90	1272.07
702.15	1270.21
702.40	1250.00
702.65	1257.50
702.91	1231.86
703.16	1230.79
703.41	1219.29
703.66	1239.71
703.91	1221.79
704.17	1259.86
704.42	1268.36
704.67	1273.86
704.92	1241.00
705.17	1264.71
705.42	1254.79
705.67	1257.57
705.93	1227.71
706.18	1245.57
706.43	1253.36
706.68	1278.71
706.93	1252.79
707.18	1276.93
707.44	1286.71
707.69	1296.71
707.94	1267.71
708.19	1269.86
708.44	1263.21
708.69	1280.50
708.94	1248.00
709.20	1255.14
709.45	1248.14
709.70	1261.00
709.95	1247.57
710.20	1261.43
710.45	1256.86
710.70	1269.43
710.96	1241.50
711.21	1262.79
711.46	1263.57
711.71	1269.36
711.96	1256.50
712.21	1271.50
712.46	1269.36
712.72	1295.21
712.97	1260.21
713.22	1270.14
713.47	1272.43
713.72	1274.86
713.97	1246.29
714.22	1283.86
714.47	1288.57
714.73	1294.29
714.98	1271.43
715.23	1301.43
715.48	1302.57
715.73	1314.00
715.98	1263.93
716.23	1270.79
716.48	1266.57
716.74	1270.64
716.99	1232.36
717.24	1255.57
717.49	1259.07
717.74	1285.36
717.99	1253.71
718.24	1275.57
718.49	1270.50
718.74	1269.21
719.00	1232.64
719.25	1241.14
719.50	1228.64
719.75	1234.71
720.00	1212.57
720.25	1239.50
720.50	1250.21
720.75	1257.29
721.00	1228.21
721.25	1256.50
721.51	1272.00
721.76	1281.00
722.01	1242.14
722.26	1256.86
722.51	1257.57
722.76	1269.79
723.01	1229.29
723.26	1235.21
723.51	1240.43
723.76	1259.43
724.02	1235.50
724.27	1255.36
724.52	1257.00
724.77	1255.79
725.02	1215.14
725.27	1228.71
725.52	1227.29
725.77	1232.64
726.02	1207.86
726.27	1236.93
726.52	1253.36
726.77	1269.93
727.03	1241.21
727.28	1248.43
727.53	1254.21
727.78	1264.93
728.03	1225.71
728.28	1234.07
728.53	1238.79
728.78	1255.64
729.03	1233.21
729.28	1257.36
729.53	1264.79
729.78	1272.57
730.03	1245.71
730.28	1268.21
730.53	1256.07
730.79	1254.71
731.04	1208.57
731.29	1219.79
731.54	1240.21
731.79	1260.50
732.04	1221.21
732.29	1237.43
732.54	1246.64
732.79	1258.00
733.04	1211.93
733.29	1203.93
733.54	1204.71
733.79	1229.43
734.04	1208.07
734.29	1248.86
734.54	1265.57
734.79	1286.43
735.04	1261.57
735.30	1276.07
735.55	1264.64
735.80	1274.29
736.05	1226.36
736.30	1235.36
736.55	1236.21
736.80	1259.71
737.05	1226.14
737.30	1240.14
737.55	1241.50
737.80	1248.71
738.05	1207.36
738.30	1225.79
738.55	1208.57
738.80	1216.93
739.05	1204.43
739.30	1225.86
739.55	1235.93
739.80	1253.50
740.05	1220.36
740.30	1239.00
740.55	1229.43
740.80	1228.21
741.05	1198.50
741.30	1203.64
741.55	1215.57
741.80	1249.43
742.05	1224.57
742.30	1262.57
742.55	1272.71
742.80	1281.00
743.05	1249.57
743.30	1257.29
743.55	1241.79
743.80	1253.14
744.05	1216.64
744.30	1225.14
744.55	1220.50
744.80	1236.29
745.05	1207.29
745.31	1229.29
745.56	1232.07
745.81	1232.43
746.06	1212.36
746.31	1237.93
746.56	1248.57
746.81	1264.57
747.06	1228.00
747.31	1255.07
747.56	1271.36
747.81	1281.14
748.05	1257.29
748.30	1274.21
748.55	1277.07
748.80	1296.50
749.05	1252.21
749.30	1247.14
749.55	1241.00
749.80	1245.21
750.05	1208.21
750.30	1229.93
750.55	1230.00
750.80	1241.86
751.05	1222.64
751.30	1239.79
751.55	1246.86
751.80	1263.64
752.05	1225.43
752.30	1237.00
752.55	1247.71
752.80	1257.50
753.05	1230.29
753.30	1243.79
753.55	1238.93
753.80	1257.50
754.05	1243.64
754.30	1269.14
754.55	1279.43
754.80	1291.79
755.05	1253.14
755.30	1260.07
755.55	1261.00
755.80	1261.71
756.05	1215.43
756.30	1236.93
756.55	1236.93
756.80	1246.71
757.05	1221.71
757.30	1232.71
757.55	1243.21
757.80	1264.07
758.04	1226.00
758.29	1252.93
758.54	1268.57
758.79	1288.50
759.04	1247.71
759.29	1268.29
759.54	1266.36
759.79	1271.86
760.04	1230.14
760.29	1243.79
760.54	1237.36
760.79	1252.29
761.04	1188.64
761.29	1196.29
761.54	1220.00
761.79	1241.71
762.04	1209.14
762.29	1238.50
762.54	1247.71
762.78	1271.21
763.03	1244.57
763.28	1261.43
763.53	1258.14
763.78	1284.50
764.03	1254.93
764.28	1279.29
764.53	1274.71
764.78	1282.57
765.03	1251.71
765.28	1274.21
765.53	1261.71
765.78	1269.93
766.03	1220.50
766.27	1258.21
766.52	1277.07
766.77	1266.64
767.02	1226.57
767.27	1246.00
767.52	1248.93
767.77	1262.50
768.02	1229.29
768.27	1245.00
768.52	1258.43
768.77	1273.00
769.02	1238.00
769.26	1242.43
769.51	1247.64
769.76	1260.93
770.01	1220.71
770.26	1236.57
770.51	1235.71
770.76	1242.07
771.01	1214.00
771.26	1230.50
771.51	1224.57
771.75	1238.50
772.00	1211.93
772.25	1235.36
772.50	1242.50
772.75	1269.64
773.00	1250.79
773.25	1265.57
773.50	1258.93
773.75	1254.86
774.00	1222.36
774.24	1252.07
774.49	1249.79
774.74	1252.29
774.99	1221.43
775.24	1245.64
775.49	1257.14
775.74	1266.71
775.99	1219.79
776.24	1232.07
776.48	1232.86
776.73	1235.57
776.98	1199.00
777.23	1217.00
777.48	1219.21
777.73	1230.64
777.98	1203.57
778.23	1222.36
778.47	1230.21
778.72	1246.43
778.97	1202.43
779.22	1192.93
779.47	1181.07
779.72	1178.86
779.97	1148.93
780.22	1177.71
780.46	1181.86
780.71	1215.43
780.96	1220.00
781.21	1266.71
781.46	1277.71
781.71	1295.14
781.96	1261.86
782.20	1281.00
782.45	1269.79
782.70	1271.14
782.95	1225.50
783.20	1248.07
783.45	1229.64
783.70	1235.64
783.94	1205.21
784.19	1231.07
784.44	1224.43
784.69	1228.57
784.94	1189.86
785.19	1222.36
785.44	1225.64
785.68	1228.86
785.93	1199.86
786.18	1232.14
786.43	1247.14
786.68	1265.14
786.93	1230.07
787.17	1248.00
787.42	1254.07
787.67	1268.93
787.92	1244.07
788.17	1264.43
788.42	1260.00
788.66	1267.86
788.91	1238.36
789.16	1266.21
789.41	1269.71
789.66	1272.21
789.91	1240.14
790.15	1272.29
790.40	1274.93
790.65	1283.64
790.90	1244.29
791.15	1263.21
791.40	1253.64
791.64	1250.57
791.89	1206.43
792.14	1238.57
792.39	1244.36
792.64	1260.29
792.88	1210.00
793.13	1232.21
793.38	1248.43
793.63	1269.21
793.88	1231.29
794.13	1255.29
794.37	1243.86
794.62	1253.57
794.87	1222.71
795.12	1231.86
795.37	1222.21
795.61	1229.43
795.86	1183.36
796.11	1209.57
796.36	1207.21
796.61	1212.07
796.85	1184.86
797.10	1213.50
797.35	1221.71
797.60	1233.93
797.85	1198.71
798.09	1222.14
798.34	1233.71
798.59	1235.79
798.84	1194.57
799.09	1213.29
799.33	1234.43
799.58	1261.00
799.83	1246.64
800.08	1269.64
800.32	1284.00
800.57	1296.43
800.82	1255.79
801.07	1248.93
801.32	1240.71
801.56	1234.29
801.81	1196.07
802.06	1220.93
802.31	1233.14
802.55	1263.21
802.80	1233.36
803.05	1249.36
803.30	1256.00
803.55	1257.29
803.79	1212.00
804.04	1221.86
804.29	1207.57
804.54	1225.57
804.78	1186.86
805.03	1203.86
805.28	1205.93
805.53	1202.71
805.78	1169.86
806.02	1203.29
806.27	1211.14
806.52	1225.00
806.77	1203.29
807.01	1244.86
807.26	1258.14
807.51	1278.71
807.76	1222.36
808.00	1220.21
808.25	1219.43
808.50	1223.64
808.75	1177.50
808.99	1196.86
809.24	1189.64
809.49	1215.57
809.74	1201.36
809.98	1227.14
810.23	1230.21
810.48	1241.29
810.73	1203.79
810.97	1225.21
811.22	1222.43
811.47	1222.64
811.72	1188.14
811.96	1215.71
812.21	1226.14
812.46	1244.86
812.70	1209.43
812.95	1232.93
813.20	1247.21
813.45	1253.36
813.69	1220.29
813.94	1230.50
814.19	1236.50
814.44	1251.21
814.68	1216.86
814.93	1241.50
815.18	1264.93
815.43	1264.36
815.67	1236.21
815.92	1267.07
816.17	1259.86
816.41	1264.00
816.66	1214.07
816.91	1219.86
817.16	1226.57
817.40	1238.50
817.65	1196.50
817.90	1217.21
818.14	1222.14
818.39	1248.64
818.64	1219.86
818.89	1226.64
819.13	1224.43
819.38	1240.50
819.63	1210.14
819.87	1242.14
820.12	1259.43
820.37	1290.00
820.62	1271.43
820.86	1288.07
821.11	1277.29
821.36	1300.00
821.60	1255.50
821.85	1245.00
822.10	1217.93
822.34	1229.07
822.59	1202.43
822.84	1235.57
823.09	1229.86
823.33	1251.86
823.58	1243.43
823.83	1268.50
824.07	1266.64
824.32	1271.79
824.57	1229.21
824.81	1254.86
825.06	1258.29
825.31	1265.57
825.55	1237.43
825.80	1254.71
826.05	1264.79
826.29	1291.07
826.54	1243.64
826.79	1245.43
827.03	1231.00
827.28	1227.64
827.53	1199.71
827.77	1220.93
828.02	1208.14
828.27	1224.36
828.52	1192.50
828.76	1219.64
829.01	1217.21
829.26	1211.07
829.50	1174.86
829.75	1200.00
830.00	1201.57
830.24	1226.14
830.49	1195.43
830.74	1218.93
830.98	1229.36
831.23	1242.79
831.47	1208.71
831.72	1223.07
831.97	1210.21
832.21	1224.50
832.46	1208.29
832.71	1249.93
832.95	1247.71
833.20	1259.00
833.45	1234.29
833.69	1268.14
833.94	1267.50
834.19	1267.21
834.43	1220.64
834.68	1244.14
834.93	1228.43
835.17	1226.86
835.42	1185.21
835.67	1199.00
835.91	1196.79
836.16	1204.43
836.40	1161.43
836.65	1186.36
836.90	1198.00
837.14	1205.14
837.39	1178.00
837.64	1200.57
837.88	1196.71
838.13	1211.50
838.38	1193.43
838.62	1210.14
838.87	1214.57
839.11	1230.00
839.36	1202.07
839.61	1229.50
839.85	1224.93
840.10	1237.50
840.35	1219.86
840.59	1241.71
840.84	1231.57
841.08	1251.93
841.33	1217.07
841.58	1240.57
841.82	1236.79
842.07	1245.57
842.32	1221.64
842.56	1241.86
842.81	1231.57
843.05	1260.57
843.30	1250.57
843.55	1273.43
843.79	1271.93
844.04	1280.64
844.28	1263.79
844.53	1288.29
844.78	1326.64
845.02	1449.64
845.27	1428.36
845.51	1443.79
845.76	1420.93
846.01	1412.29
846.25	1385.64
846.50	1357.57
846.74	1234.07
846.99	1232.64
847.24	1205.21
847.48	1244.00
847.73	1250.79
847.97	1256.14
848.22	1217.36
848.47	1229.57
848.71	1216.86
848.96	1210.43
849.20	1190.29
849.45	1209.43
849.69	1208.14
849.94	1222.29
850.19	1186.43
850.43	1197.14
850.68	1197.57
850.92	1201.29
851.17	1179.00
851.42	1215.07
851.66	1220.79
851.91	1242.43
852.15	1228.64
852.40	1257.57
852.64	1258.64
852.89	1263.43
853.14	1216.21
853.38	1218.64
853.63	1216.00
853.87	1231.21
854.12	1209.57
854.36	1222.50
854.61	1216.21
854.86	1220.21
855.10	1194.00
855.35	1202.50
855.59	1196.29
855.84	1197.79
856.08	1178.36
856.33	1202.79
856.57	1215.00
856.82	1240.64
857.07	1223.07
857.31	1243.93
857.56	1240.00
857.80	1244.36
858.05	1215.64
858.29	1223.21
858.54	1206.50
858.78	1216.57
859.03	1187.57
859.27	1216.00
859.52	1227.07
859.77	1250.00
860.01	1224.29
860.26	1262.57
860.50	1270.64
860.75	1280.64
860.99	1252.64
861.24	1255.71
861.48	1230.14
861.73	1241.64
861.97	1200.43
862.22	1205.29
862.46	1210.64
862.71	1221.00
862.96	1191.43
863.20	1219.86
863.45	1225.50
863.69	1251.36
863.94	1221.93
864.18	1231.64
864.43	1234.00
864.67	1253.07
864.92	1233.86
865.16	1263.86
865.41	1252.71
865.65	1279.29
865.90	1261.43
866.14	1274.93
866.39	1271.14
866.63	1282.43
866.88	1239.57
867.12	1256.43
867.37	1243.93
867.61	1259.57
867.86	1230.64
868.10	1231.07
868.35	1214.43
868.59	1226.36
868.84	1189.86
869.08	1202.00
869.33	1185.93
869.57	1198.64
869.82	1175.14
870.06	1185.29
870.31	1186.57
870.55	1207.79
870.80	1189.43
871.04	1208.00
871.29	1206.14
871.53	1227.14
871.78	1217.86
872.02	1242.43
872.27	1251.79
872.51	1270.07
872.76	1251.93
873.00	1267.71
873.25	1261.57
873.49	1269.00
873.74	1226.86
873.98	1231.57
874.23	1220.57
874.47	1238.57
874.72	1220.93
874.96	1246.43
875.21	1251.50
875.45	1267.57
875.70	1240.36
875.94	1260.64
876.19	1239.57
876.43	1251.86
876.68	1234.93
876.92	1246.14
877.17	1239.86
877.41	1245.93
877.65	1213.93
877.90	1239.64
878.14	1223.50
878.39	1221.79
878.63	1196.21
878.88	1213.00
879.12	1211.14
879.37	1217.93
879.61	1184.71
879.86	1210.21
880.10	1213.79
880.35	1236.64
880.59	1225.79
880.83	1247.71
881.08	1257.79
881.32	1286.86
881.57	1259.00
881.81	1279.64
882.06	1263.50
882.30	1266.14
882.55	1243.36
882.79	1265.43
883.03	1248.00
883.28	1259.64
883.52	1208.93
883.77	1219.43
884.01	1213.21
884.26	1220.07
884.50	1178.14
884.75	1199.57
884.99	1188.00
885.23	1216.29
885.48	1196.57
885.72	1208.57
885.97	1196.43
886.21	1202.79
886.46	1173.36
886.70	1194.64
886.94	1183.93
887.19	1196.86
887.43	1169.07
887.68	1184.93
887.92	1189.36
888.17	1203.86
888.41	1173.93
888.65	1197.43
888.90	1199.43
889.14	1223.00
889.39	1204.57
889.63	1217.79
889.88	1209.79
890.12	1224.14
890.36	1198.14
890.61	1214.79
890.85	1215.64
891.10	1253.21
891.34	1251.64
891.58	1286.36
891.83	1289.86
892.07	1311.29
892.32	1294.79
892.56	1300.14
892.80	1275.00
893.05	1274.14
893.29	1236.64
893.54	1249.36
893.78	1229.79
894.02	1222.07
894.27	1197.29
894.51	1217.93
894.76	1205.64
895.00	1211.43
895.24	1187.50
895.49	1213.29
895.73	1219.36
895.98	1231.64
896.22	1201.43
896.46	1221.36
896.71	1219.29
896.95	1223.29
897.20	1187.14
897.44	1200.00
897.68	1204.43
897.93	1213.93
898.17	1182.21
898.41	1201.57
898.66	1218.86
898.90	1245.36
899.15	1224.29
899.39	1225.93
899.63	1222.71
899.88	1244.14
900.12	1224.21
900.36	1224.07
900.61	1208.71
900.85	1213.64
901.10	1190.57
901.34	1202.07
901.58	1195.36
901.83	1212.07
902.07	1203.64
902.31	1225.50
902.56	1216.71
902.80	1233.43
903.05	1220.00
903.29	1231.43
903.53	1219.07
903.78	1227.36
904.02	1206.29
904.26	1229.07
904.51	1230.79
904.75	1245.36
904.99	1221.36
905.24	1224.00
905.48	1215.86
905.72	1240.86
905.97	1218.79
906.21	1229.00
906.45	1222.71
906.70	1233.29
906.94	1221.50
907.19	1246.14
907.43	1220.00
907.67	1217.71
907.92	1189.07
908.16	1201.93
908.40	1195.00
908.65	1202.43
908.89	1161.21
909.13	1180.14
909.38	1192.86
909.62	1218.50
909.86	1199.50
910.11	1228.29
910.35	1229.71
910.59	1245.79
910.84	1221.50
911.08	1231.50
911.32	1219.36
911.57	1223.07
911.81	1190.00
912.05	1204.50
912.29	1212.64
912.54	1249.79
912.78	1232.29
913.02	1244.21
913.27	1243.71
913.51	1273.00
913.75	1255.36
914.00	1274.36
914.24	1247.21
914.48	1251.86
914.73	1232.64
914.97	1255.29
915.21	1243.64
915.46	1254.64
915.70	1212.79
915.94	1236.21
916.18	1234.21
916.43	1242.21
916.67	1206.43
916.91	1220.36
917.16	1207.00
917.40	1217.43
917.64	1190.29
917.89	1200.00
918.13	1202.64
918.37	1215.21
918.61	1183.79
918.86	1192.71
919.10	1185.57
919.34	1192.07
919.59	1179.36
919.83	1201.50
920.07	1195.86
920.32	1211.79
920.56	1190.36
920.80	1211.36
921.04	1210.79
921.29	1224.86
921.53	1204.00
921.77	1230.43
922.02	1233.57
922.26	1261.79
922.50	1237.50
922.74	1248.71
922.99	1235.14
923.23	1235.07
923.47	1197.21
923.71	1204.36
923.96	1190.57
924.20	1202.64
924.44	1174.79
924.69	1200.71
924.93	1203.79
925.17	1229.57
925.41	1205.43
925.66	1226.64
925.90	1224.79
926.14	1244.00
926.38	1204.14
926.63	1207.86
926.87	1201.07
927.11	1214.93
927.35	1177.07
927.60	1191.50
927.84	1195.14
928.08	1233.21
928.32	1214.43
928.57	1222.36
928.81	1210.93
929.05	1223.43
929.29	1199.36
929.54	1202.71
929.78	1186.43
930.02	1199.50
930.26	1181.86
930.51	1207.64
930.75	1212.50
930.99	1226.86
931.23	1206.71
931.48	1213.07
931.72	1200.86
931.96	1207.43
932.20	1181.36
932.45	1201.71
932.69	1192.21
932.93	1209.64
933.17	1190.07
933.41	1219.21
933.66	1226.43
933.90	1240.57
934.14	1212.71
934.38	1242.14
934.63	1245.86
934.87	1273.57
935.11	1247.07
935.35	1250.50
935.60	1240.21
935.84	1250.93
936.08	1213.29
936.32	1214.50
936.56	1200.79
936.81	1227.93
937.05	1205.57
937.29	1214.93
937.53	1207.29
937.77	1227.64
938.02	1204.86
938.26	1220.00
938.50	1193.43
938.74	1209.57
938.99	1203.86
939.23	1241.36
939.47	1236.36
939.71	1254.64
939.95	1222.86
940.20	1233.71
940.44	1231.43
940.68	1234.93
940.92	1192.50
941.16	1201.71
941.41	1189.64
941.65	1199.14
941.89	1176.79
942.13	1183.14
942.37	1183.79
942.62	1196.93
942.86	1175.57
943.10	1199.07
943.34	1200.21
943.58	1225.00
943.82	1216.64
944.07	1231.79
944.31	1229.29
944.55	1243.21
944.79	1217.07
945.03	1239.36
945.28	1224.71
945.52	1223.71
945.76	1186.21
946.00	1191.86
946.24	1187.36
946.48	1207.50
946.73	1177.79
946.97	1202.64
947.21	1200.36
947.45	1224.21
947.69	1215.64
947.93	1223.43
948.18	1215.93
948.42	1259.29
948.66	1229.07
948.90	1238.14
949.14	1235.00
949.38	1249.29
949.63	1236.43
949.87	1240.86
950.11	1214.50
950.35	1245.07
950.59	1232.79
950.83	1235.21
951.08	1209.43
951.32	1217.21
951.56	1204.86
951.80	1220.50
952.04	1204.64
952.28	1231.00
952.52	1217.50
952.77	1245.00
953.01	1242.29
953.25	1254.29
953.49	1220.14
953.73	1224.14
953.97	1199.14
954.21	1208.64
954.46	1181.43
954.70	1200.07
954.94	1183.21
955.18	1204.21
955.42	1190.43
955.66	1206.14
955.90	1195.71
956.15	1220.64
956.39	1196.86
956.63	1207.43
956.87	1198.71
957.11	1212.36
957.35	1188.57
957.59	1211.93
957.83	1193.29
958.08	1200.14
958.32	1192.93
958.56	1214.43
958.80	1208.93
959.04	1235.14
959.28	1220.64
959.52	1240.00
959.76	1234.57
960.01	1237.21
960.25	1200.79
960.49	1204.71
960.73	1193.64
960.97	1209.14
961.21	1188.50
961.45	1209.29
961.69	1201.36
961.93	1207.43
962.18	1186.79
962.42	1202.43
962.66	1186.00
962.90	1199.57
963.14	1172.43
963.38	1189.64
963.62	1188.07
963.86	1212.79
964.10	1195.36
964.34	1224.29
964.59	1220.00
964.83	1246.21
965.07	1231.50
965.31	1252.93
965.55	1239.36
965.79	1249.29
966.03	1216.79
966.27	1221.86
966.51	1207.71
966.75	1228.14
966.99	1208.07
967.24	1217.07
967.48	1198.79
967.72	1210.86
967.96	1194.64
968.20	1206.07
968.44	1193.79
968.68	1202.36
968.92	1185.86
969.16	1214.93
969.40	1209.00
969.64	1224.14
969.88	1196.43
970.12	1200.64
970.37	1194.29
970.61	1218.00
970.85	1178.71
971.09	1183.14
971.33	1168.71
971.57	1190.86
971.81	1171.43
972.05	1188.71
972.29	1168.86
972.53	1189.86
972.77	1175.36
973.01	1197.93
973.25	1196.00
973.49	1218.14
973.73	1203.50
973.97	1224.93
974.22	1226.93
974.46	1236.14
974.70	1208.14
974.94	1213.93
975.18	1207.86
975.42	1209.43
975.66	1179.86
975.90	1178.50
976.14	1164.57
976.38	1175.43
976.62	1157.50
976.86	1174.86
977.10	1183.29
977.34	1220.71
977.58	1228.57
977.82	1264.00
978.06	1264.21
978.30	1263.86
978.54	1232.86
978.78	1245.57
979.02	1231.29
979.26	1245.21
979.50	1212.57
979.74	1223.93
979.99	1228.29
980.23	1244.86
980.47	1211.00
980.71	1207.36
980.95	1178.36
981.19	1193.50
981.43	1176.86
981.67	1192.57
981.91	1186.71
982.15	1199.00
982.39	1177.14
982.63	1184.36
982.87	1172.14
983.11	1171.50
983.35	1152.43
983.59	1177.36
983.83	1178.57
984.07	1210.14
984.31	1197.43
984.55	1222.79
984.79	1261.21
985.03	1274.07
985.27	1247.50
985.51	1260.36
985.75	1247.36
985.99	1270.64
986.23	1247.43
986.47	1230.64
986.71	1225.86
986.95	1250.93
987.19	1222.36
987.43	1223.64
987.67	1202.86
987.91	1209.71
988.15	1190.71
988.39	1202.71
988.63	1180.71
988.87	1197.64
989.11	1193.86
989.35	1229.36
989.59	1230.07
989.83	1238.57
990.07	1215.79
990.31	1221.86
990.55	1225.79
990.79	1241.64
991.03	1194.64
991.27	1198.79
991.51	1192.29
991.75	1215.93
991.99	1195.86
992.23	1200.07
992.47	1184.79
992.71	1222.43
992.94	1211.21
993.18	1223.00
993.42	1194.50
993.66	1214.43
993.90	1197.29
994.14	1217.36
994.38	1192.86
994.62	1206.57
994.86	1191.21
995.10	1220.36
995.34	1219.86
995.58	1239.14
995.82	1212.64
996.06	1220.43
996.30	1209.36
996.54	1228.14
996.78	1193.21
997.02	1190.07
997.26	1178.36
997.50	1187.29
997.74	1174.00
997.98	1196.57
998.22	1184.36
998.46	1207.21
998.69	1202.64
998.93	1219.79
999.17	1224.50
999.41	1247.21
999.65	1218.50
999.89	1228.79
1000.13	1221.64
1000.37	1242.00
1000.61	1231.43
1000.85	1261.79
1001.09	1248.14
1001.33	1256.79
1001.57	1236.93
1001.81	1252.43
1002.05	1224.07
1002.29	1232.00
1002.52	1194.00
1002.76	1208.36
1003.00	1202.79
1003.24	1220.29
1003.48	1203.57
1003.72	1234.29
1003.96	1226.86
1004.20	1236.36
1004.44	1219.43
1004.68	1242.93
1004.92	1226.79
1005.16	1235.00
1005.40	1217.64
1005.63	1234.50
1005.87	1230.43
1006.11	1247.43
1006.35	1231.00
1006.59	1266.86
1006.83	1273.14
1007.07	1291.79
1007.31	1258.64
1007.55	1259.86
1007.79	1234.64
1008.03	1241.79
1008.26	1205.86
1008.50	1206.21
1008.74	1182.29
1008.98	1202.57
1009.22	1187.00
1009.46	1205.50
1009.70	1201.07
1009.94	1225.36
1010.18	1207.79
1010.42	1231.43
1010.65	1223.93
1010.89	1243.43
1011.13	1239.57
1011.37	1250.14
1011.61	1231.71
1011.85	1251.50
1012.09	1236.71
1012.33	1256.57
1012.56	1248.21
1012.80	1253.50
1013.04	1228.43
1013.28	1243.14
1013.52	1225.79
1013.76	1232.29
1014.00	1206.43
1014.24	1216.57
1014.48	1207.07
1014.71	1226.50
1014.95	1203.71
1015.19	1225.29
1015.43	1204.43
1015.67	1213.79
1015.91	1194.29
1016.15	1212.57
1016.38	1198.71
1016.62	1213.71
1016.86	1186.93
1017.10	1199.64
1017.34	1184.64
1017.58	1195.64
1017.82	1181.57
1018.06	1196.14
1018.29	1176.29
1018.53	1192.93
1018.77	1184.14
1019.01	1201.64
1019.25	1195.93
1019.49	1197.79
1019.73	1181.07
1019.96	1219.14
1020.20	1213.86
1020.44	1233.50
1020.68	1224.07
1020.92	1236.50
1021.16	1234.43
1021.39	1251.71
1021.63	1223.64
1021.87	1243.57
1022.11	1241.00
1022.35	1254.36
1022.59	1231.64
1022.82	1247.07
1023.06	1245.86
1023.30	1273.79
1023.54	1242.07
1023.78	1232.64
1024.02	1231.71
1024.25	1264.43
1024.49	1242.29
1024.73	1247.93
1024.97	1222.57
1025.21	1235.93
1025.45	1229.79
1025.68	1236.07
1025.92	1211.93
1026.16	1228.64
1026.40	1204.14
1026.64	1213.00
1026.88	1205.29
1027.11	1213.86
1027.35	1192.71
1027.59	1211.71
1027.83	1189.07
1028.07	1211.93
1028.30	1210.07
1028.54	1236.50
1028.78	1241.93
1029.02	1255.43
1029.26	1238.64
1029.50	1267.57
1029.73	1256.07
1029.97	1255.50
1030.21	1221.71
1030.45	1217.86
1030.69	1210.36
1030.92	1232.43
1031.16	1197.00
1031.40	1211.86
1031.64	1209.00
1031.88	1241.00
1032.11	1240.79
1032.35	1245.64
1032.59	1234.21
1032.83	1262.36
1033.06	1232.57
1033.30	1249.00
1033.54	1229.21
1033.78	1229.00
1034.02	1213.29
1034.25	1209.00
1034.49	1196.29
1034.73	1220.43
1034.97	1208.00
1035.21	1226.07
1035.44	1220.00
1035.68	1241.00
1035.92	1225.36
1036.16	1231.07
1036.39	1213.29
1036.63	1216.00
1036.87	1188.86
1037.11	1190.64
1037.35	1175.21
1037.58	1211.07
1037.82	1213.14
1038.06	1241.43
1038.30	1225.29
1038.53	1238.64
1038.77	1230.71
1039.01	1253.43
1039.25	1229.43
1039.48	1224.14
1039.72	1196.43
1039.96	1224.36
1040.20	1219.00
1040.44	1233.86
1040.67	1208.07
1040.91	1228.07
1041.15	1234.93
1041.39	1256.00
1041.62	1227.71
1041.86	1227.00
1042.10	1208.36
1042.34	1215.79
1042.57	1188.79
1042.81	1194.50
1043.05	1168.29
1043.29	1175.21
1043.52	1157.86
1043.76	1161.93
1044.00	1149.00
1044.23	1163.29
1044.47	1137.00
1044.71	1150.79
1044.95	1136.86
1045.18	1153.57
1045.42	1149.14
1045.66	1171.64
1045.90	1163.71
1046.13	1197.14
1046.37	1187.93
1046.61	1222.21
1046.85	1211.29
1047.08	1216.00
1047.32	1199.36
1047.56	1216.00
1047.79	1196.07
1048.03	1217.00
1048.27	1201.71
1048.51	1235.79
1048.74	1244.29
1048.98	1257.57
1049.22	1234.07
1049.46	1247.07
1049.69	1238.57
1049.93	1246.50
1050.17	1226.14
1050.40	1237.50
1050.64	1228.86
1050.88	1238.36
1051.12	1222.57
1051.35	1225.07
1051.59	1216.57
1051.83	1221.86
1052.06	1202.21
1052.30	1225.29
1052.54	1223.36
1052.77	1245.93
1053.01	1235.64
1053.25	1240.36
1053.49	1222.07
1053.72	1228.36
1053.96	1194.64
1054.20	1205.93
1054.43	1185.57
1054.67	1193.43
1054.91	1177.86
1055.14	1197.50
1055.38	1191.21
1055.62	1204.14
1055.85	1184.21
1056.09	1197.14
1056.33	1191.07
1056.57	1213.14
1056.80	1186.64
1057.04	1188.29
1057.28	1195.07
1057.51	1219.36
1057.75	1190.93
1057.99	1195.50
1058.22	1181.21
1058.46	1208.50
1058.70	1203.14
1058.93	1198.86
1059.17	1183.50
1059.41	1207.64
1059.64	1206.50
1059.88	1224.57
1060.12	1221.29
1060.35	1241.57
1060.59	1230.64
1060.83	1234.71
1061.06	1226.71
1061.30	1238.57
1061.54	1218.36
1061.77	1227.86
1062.01	1219.86
1062.25	1235.57
1062.48	1229.64
1062.72	1227.36
1062.96	1204.86
1063.19	1228.64
1063.43	1227.57
1063.67	1245.79
1063.90	1230.86
1064.14	1240.29
1064.38	1238.29
1064.61	1256.64
1064.85	1240.14
1065.08	1237.43
1065.32	1221.57
1065.56	1239.86
1065.79	1227.36
1066.03	1229.07
1066.27	1220.29
1066.50	1221.43
1066.74	1201.86
1066.98	1195.64
1067.21	1172.00
1067.45	1170.93
1067.68	1167.50
1067.92	1173.21
1068.16	1163.57
1068.39	1179.71
1068.63	1170.21
1068.87	1190.07
1069.10	1189.64
1069.34	1210.29
1069.58	1198.64
1069.81	1211.14
1070.05	1189.79
1070.28	1194.50
1070.52	1174.07
1070.76	1179.50
1070.99	1155.86
1071.23	1163.79
1071.46	1142.36
1071.70	1155.57
1071.94	1147.36
1072.17	1168.21
1072.41	1166.07
1072.65	1184.71
1072.88	1179.21
1073.12	1208.71
1073.35	1200.43
1073.59	1226.86
1073.83	1200.29
1074.06	1202.86
1074.30	1187.57
1074.53	1193.57
1074.77	1169.00
1075.01	1177.07
1075.24	1153.36
1075.48	1178.79
1075.71	1170.14
1075.95	1165.93
1076.19	1160.43
1076.42	1178.21
1076.66	1167.07
1076.89	1187.79
1077.13	1173.00
1077.37	1192.29
1077.60	1199.64
1077.84	1204.79
1078.07	1183.00
1078.31	1193.64
1078.54	1173.14
1078.78	1183.43
1079.02	1159.71
1079.25	1163.71
1079.49	1148.21
1079.72	1160.43
1079.96	1164.79
1080.20	1190.71
1080.43	1174.50
1080.67	1176.14
1080.90	1161.00
1081.14	1184.64
1081.37	1182.14
1081.61	1190.43
1081.85	1167.21
1082.08	1172.93
1082.32	1174.79
1082.55	1186.64
1082.79	1169.29
1083.02	1179.93
1083.26	1155.21
1083.49	1165.14
1083.73	1170.93
1083.97	1196.43
1084.20	1201.07
1084.44	1222.93
1084.67	1212.57
1084.91	1242.79
1085.14	1238.79
1085.38	1232.64
1085.61	1205.71
1085.85	1217.07
1086.09	1200.00
1086.32	1213.36
1086.56	1194.86
1086.79	1210.93
1087.03	1221.00
1087.26	1234.29
1087.50	1212.79
1087.73	1237.29
1087.97	1229.14
1088.20	1244.14
1088.44	1231.29
1088.68	1242.14
1088.91	1234.50
1089.15	1254.71
1089.38	1228.29
1089.62	1240.64
1089.85	1224.21
1090.09	1235.93
1090.32	1227.14
1090.56	1246.79
1090.79	1227.93
1091.03	1242.57
1091.26	1227.86
1091.50	1250.93
1091.73	1237.71
1091.97	1236.93
1092.20	1216.79
1092.44	1232.14
1092.67	1206.93
1092.91	1204.29
1093.15	1181.14
1093.38	1191.21
1093.62	1171.50
1093.85	1178.14
1094.09	1163.14
1094.32	1181.86
1094.56	1177.07
1094.79	1184.79
1095.03	1174.86
1095.26	1200.07
1095.50	1194.07
1095.73	1206.57
1095.97	1202.64
1096.20	1234.57
1096.44	1228.14
1096.67	1236.64
1096.91	1239.64
1097.14	1263.64
1097.38	1260.36
1097.61	1266.50
1097.85	1248.07
1098.08	1268.43
1098.32	1259.71
1098.55	1261.00
1098.79	1236.07
1099.02	1246.29
1099.26	1248.14
1099.49	1264.29
1099.73	1242.57
1099.96	1262.86
1100.19	1247.21
1100.43	1254.93
1100.66	1241.64
1100.90	1239.57
1101.13	1209.29
1101.37	1215.64
1101.60	1187.14
1101.84	1203.43
1102.07	1194.93
1102.31	1198.14
1102.54	1193.43
1102.78	1211.50
1103.01	1202.86
1103.25	1218.36
1103.48	1207.14
1103.72	1234.14
1103.95	1237.71
1104.19	1242.86
1104.42	1235.79
1104.65	1264.00
1104.89	1253.43
1105.12	1253.79
1105.36	1227.29
1105.59	1241.93
1105.83	1233.14
1106.06	1238.93
1106.30	1212.57
1106.53	1223.79
1106.77	1214.64
1107.00	1237.21
1107.23	1210.07
1107.47	1238.43
1107.70	1235.43
1107.94	1257.50
1108.17	1253.64
1108.41	1272.57
1108.64	1245.07
1108.88	1257.79
1109.11	1240.50
1109.34	1264.21
1109.58	1257.71
1109.81	1253.36
1110.05	1239.00
1110.28	1270.57
1110.52	1266.21
1110.75	1267.36
1110.98	1228.50
1111.22	1225.79
1111.45	1221.29
1111.69	1233.93
1111.92	1219.57
1112.16	1242.07
1112.39	1230.14
1112.62	1254.64
1112.86	1247.14
1113.09	1267.71
1113.33	1233.07
1113.56	1221.86
1113.80	1191.29
1114.03	1200.36
1114.26	1184.71
1114.50	1191.50
1114.73	1165.36
1114.97	1196.14
1115.20	1197.79
1115.44	1208.79
1115.67	1185.86
1115.90	1197.43
1116.14	1240.50
1116.37	1090.50
1116.61	1259.50
